{
   "resourceType":"Bundle",
   "type":"transaction",
   "entry":[
      {
         "resource":{
            "resourceType":"Organization",
            "name":"YIEWSLEY FAMILY PRACTICE",
            "identifier":[
               {
                  "type":{
                     "coding":[
                        {
                           "code":"CLN",
                           "system":"http://terminology.hl7.org/CodeSystem/v2-0203"
                        }
                     ]
                  },
                  "value":"6020"
               }
            ],
            "id":"01010101-0101-4101-8101-010101010101"
         },
         "request":{
            "method":"PUT",
            "url":"Organization/01010101-0101-4101-8101-010101010101"
         }
      },
      {
         "request":{
            "url":"Practitioner/02020202-0202-4202-8202-020202020202",
            "method":"PUT"
         },
         "resource":{
            "id":"02020202-0202-4202-8202-020202020202",
            "resourceType":"Practitioner",
            "identifier":[
               {
                  "value":"C184726198",
                  "type":{
                     "coding":[
                        {
                           "code":"CC"
                        }
                     ]
                  }
               }
            ],
            "name":[
               {
                  "prefix":[
                     "Dr"
                  ],
                  "use":"official",
                  "period":{
                     "start":"2018-07-25T14:01:56+07:00",
                     "end":"2018-07-25T14:01:56+07:00"
                  },
                  "family":"Connell",
                  "given":[
                     "Alistair",
                     "Alex"
                  ],
                  "suffix":[
                     "Sr",
                     "MD",
                     "MSc."
                  ]
               }
            ]
         }
      },
      {
         "request":{
            "url":"Patient/03030303-0303-4303-8303-030303030303",
            "method":"PUT"
         },
         "resource":{
            "id":"03030303-0303-4303-8303-030303030303",
            "resourceType":"Patient",
            "address":[
               {
                  "state":"N/A",
                  "postalCode":"SV20 3BC",
                  "country":"GBR",
                  "period":{
                     "end":"2018-07-25T14:01:56+07:00",
                     "start":"2018-07-25T14:01:56+07:00"
                  },
                  "line":[
                     "25 Dahlia House",
                     "Plough Avenue",
                     "Some Guy"
                  ],
                  "city":"Croydon"
               }
            ],
            "telecom":[
               {
                  "system":"phone",
                  "use":"home",
                  "value":"020 0921 5742"
               },
               {
                  "use":"work",
                  "value":"020 0921 5748",
                  "system":"phone"
               },
               {
                  "value":"020 0921 5700",
                  "system":"phone",
                  "use":"home"
               }
            ],
            "gender":"unknown",
            "deceasedDateTime":"2018-07-25T14:01:56+07:00",
            "identifier":[
               {
                  "value":"1419055458",
                  "type":{
                     "coding":[
                        {
                           "code":"MRN"
                        }
                     ]
                  }
               },
               {
                  "value":"1419055458",
                  "type":{
                     "coding":[
                        {
                           "code":"MRN"
                        }
                     ]
                  }
               },
               {
                  "type":{
                     "coding":[
                        {
                           "code":"NHSNMBR"
                        }
                     ]
                  },
                  "value":"3870146052"
               },
               {
                  "value":"1419055459",
                  "type":{
                     "coding":[
                        {
                           "code":"MRN4"
                        }
                     ]
                  }
               },
               {
                  "type":{
                     "coding":[
                        {
                           "system":"http://terminology.hl7.org/CodeSystem/v2-0203",
                           "code":"SB"
                        }
                     ]
                  },
                  "system":"http://hl7.org/fhir/sid/us-ssn",
                  "value":"SSN-48383"
               },
               {
                  "value":"43211234",
                  "type":{
                     "coding":[
                        {
                           "code":"DL",
                           "system":"http://terminology.hl7.org/CodeSystem/v2-0203"
                        }
                     ]
                  }
               }
            ],
            "meta":{
               "lastUpdated":"2018-07-25T14:01:56+07:00"
            },
            "name":[
               {
                  "period":{
                     "start":"2018-07-25T14:01:56+07:00",
                     "end":"2018-07-25T14:01:56+07:00"
                  },
                  "family":"Doe",
                  "given":[
                     "Jane",
                     "Janny"
                  ],
                  "suffix":[
                     "Jr",
                     "PhD",
                     "Eng."
                  ],
                  "prefix":[
                     "Miss"
                  ],
                  "use":"anonymous"
               },
               {
                  "use":"anonymous",
                  "period":{
                     "start":"2018-07-25T14:01:56+07:00",
                     "end":"2018-07-25T14:01:56+07:00"
                  },
                  "family":"Al-Doe",
                  "given":[
                     "Al-Jane",
                     "Al-Janny"
                  ],
                  "suffix":[
                     "Al-Jr",
                     "Al-PhD",
                     "Al-Eng."
                  ],
                  "prefix":[
                     "Al-Miss"
                  ]
               }
            ],
            "active":true,
            "birthDate":"1994-06-15",
            "multipleBirthInteger":2,
            "maritalStatus":{
               "coding":[
                  {
                     "code":"MARRIED"
                  }
               ]
            },
            "generalPractitioner":[
               {
                  "reference":"Organization/01010101-0101-4101-8101-010101010101"
               },
               {
                  "reference":"Practitioner/02020202-0202-4202-8202-020202020202"
               }
            ]
         }
      },
      {
         "resource":{
            "status":"active",
            "id":"04040404-0404-4404-8404-040404040404",
            "resourceType":"Account",
            "identifier":[
               {
                  "value":"1419055678"
               }
            ],
            "subject":[
               {
                  "reference":"Patient/03030303-0303-4303-8303-030303030303"
               }
            ]
         },
         "request":{
            "method":"PUT",
            "url":"Account/04040404-0404-4404-8404-040404040404"
         }
      },
      {
         "request":{
            "method":"PUT",
            "url":"Device/05050505-0505-4505-8505-050505050505"
         },
         "resource":{
            "id":"05050505-0505-4505-8505-050505050505",
            "resourceType":"Device",
            "identifier":[
               {
                  "value":"CERNER"
               }
            ]
         }
      },
      {
         "request":{
            "method":"PUT",
            "url":"Organization/06060606-0606-4606-8606-060606060606"
         },
         "resource":{
            "identifier":[
               {
                  "value":"RAL"
               },
               {
                  "value":"4.2-two",
                  "type":{
                     "coding":[
                        {
                           "code":"UUID",
                           "system":"http://terminology.hl7.org/CodeSystem/v2-0301"
                        }
                     ]
                  },
                  "system":"urn:ietf:rfc:3986"
               }
            ],
            "id":"06060606-0606-4606-8606-060606060606",
            "resourceType":"Organization"
         }
      },
      {
         "request":{
            "method":"PUT",
            "url":"Provenance/07070707-0707-4707-8707-070707070707"
         },
         "resource":{
            "agent":[
               {
                  "who":{
                     "reference":"Device/05050505-0505-4505-8505-050505050505"
                  },
                  "type":{
                     "coding":[
                        {
                           "system":"http://terminology.hl7.org/CodeSystem/provenance-participant-type",
                           "code":"assembler"
                        }
                     ]
                  }
               },
               {
                  "type":{
                     "coding":[
                        {
                           "system":"http://terminology.hl7.org/CodeSystem/provenance-participant-type",
                           "code":"author"
                        }
                     ]
                  },
                  "who":{
                     "reference":"Organization/06060606-0606-4606-8606-060606060606"
                  }
               }
            ],
            "recorded":"2019-03-09T13:01:56.9339Z",
            "id":"07070707-0707-4707-8707-070707070707",
            "resourceType":"Provenance",
            "target":[
               {
                  "reference":"Organization/01010101-0101-4101-8101-010101010101"
               },
               {
                  "reference":"Practitioner/02020202-0202-4202-8202-020202020202"
               },
               {
                  "reference":"Patient/03030303-0303-4303-8303-030303030303"
               },
               {
                  "reference":"Account/04040404-0404-4404-8404-040404040404"
               },
               {
                  "reference":"Device/05050505-0505-4505-8505-050505050505"
               },
               {
                  "reference":"Organization/06060606-0606-4606-8606-060606060606"
               }
            ]
         }
      }
   ]
}
