{
   "timestamp":"2019-03-09T13:01:56.9339Z",
   "identifier":{
      "value":"7"
   },
   "resourceType":"Bundle",
   "type":"transaction",
   "entry":[
      {
         "resource":{
            "id":"01010101-0101-4101-8101-010101010101",
            "resourceType":"Organization",
            "identifier":[
               {
                  "value":"RAL"
               },
               {
                  "type":{
                     "coding":[
                        {
                           "code":"UUID",
                           "system":"http://terminology.hl7.org/CodeSystem/v2-0301"
                        }
                     ]
                  },
                  "system":"urn:ietf:rfc:3986",
                  "value":"4.2-two"
               }
            ],
            "address":[
               {
                  "country":"44"
               }
            ]
         },
         "request":{
            "url":"Organization/01010101-0101-4101-8101-010101010101",
            "method":"PUT"
         }
      },
      {
         "request":{
            "url":"Organization/02020202-0202-4202-8202-020202020202",
            "method":"PUT"
         },
         "resource":{
            "resourceType":"Organization",
            "name":"Reciever - YIEWSLEY FAMILY PRACTICE",
            "identifier":[
               {
                  "value":"6010",
                  "type":{
                     "coding":[
                        {
                           "system":"http://terminology.hl7.org/CodeSystem/v2-0203",
                           "code":"DCode"
                        }
                     ]
                  }
               }
            ],
            "id":"02020202-0202-4202-8202-020202020202"
         }
      },
      {
         "resource":{
            "identifier":[
               {
                  "type":{
                     "coding":[
                        {
                           "system":"http://terminology.hl7.org/CodeSystem/v2-0203",
                           "code":"RCode"
                        }
                     ]
                  },
                  "value":"6010"
               }
            ],
            "id":"03030303-0303-4303-8303-030303030303",
            "resourceType":"Organization",
            "name":"Resposible - YIEWSLEY FAMILY PRACTICE"
         },
         "request":{
            "method":"PUT",
            "url":"Organization/03030303-0303-4303-8303-030303030303"
         }
      },
      {
         "resource":{
            "eventCoding":{
               "system":"http://terminology.hl7.org/CodeSystem/v2-0003",
               "code":"A01",
               "display":"ADT^A01^9.3-DEF"
            },
            "source":{
               "name":"CERNER",
               "endpoint":"unknown"
            },
            "destination":[
               {
                  "receiver":{
                     "reference":"Organization/02020202-0202-4202-8202-020202020202"
                  },
                  "endpoint":"unknown",
                  "name":"STREAMS"
               }
            ],
            "sender":{
               "reference":"Organization/01010101-0101-4101-8101-010101010101"
            },
            "responsible":{
               "reference":"Organization/03030303-0303-4303-8303-030303030303"
            },
            "meta":{
               "tag":[
                  {
                     "code":"T",
                     "system":"http://terminology.hl7.org/CodeSystem/v2-0103"
                  },
                  {
                     "system":"http://terminology.hl7.org/CodeSystem/v2-0207",
                     "code":"11.2-processing"
                  }
               ],
               "security":[
                  {
                     "code":"8-Security"
                  }
               ]
            },
            "resourceType":"MessageHeader",
            "language":"ENG",
            "id":"04040404-0404-4404-8404-040404040404"
         },
         "request":{
            "method":"PUT",
            "url":"MessageHeader/04040404-0404-4404-8404-040404040404"
         }
      },
      {
         "resource":{
            "id":"05050505-0505-4505-8505-050505050505",
            "resourceType":"Device",
            "identifier":[
               {
                  "value":"CERNER"
               }
            ]
         },
         "request":{
            "method":"PUT",
            "url":"Device/05050505-0505-4505-8505-050505050505"
         }
      },
      {
         "resource":{
            "resourceType":"Provenance",
            "agent":[
               {
                  "who":{
                     "reference":"Device/05050505-0505-4505-8505-050505050505"
                  }
               }
            ],
            "recorded":"2019-03-09T13:01:56.9339Z",
            "target":[
               {
                  "reference":"MessageHeader/04040404-0404-4404-8404-040404040404"
               }
            ],
            "id":"06060606-0606-4606-8606-060606060606"
         },
         "request":{
            "url":"Provenance/06060606-0606-4606-8606-060606060606",
            "method":"PUT"
         }
      },
      {
         "resource":{
            "resourceType":"Device",
            "identifier":[
               {
                  "value":"CERNER"
               }
            ],
            "id":"07070707-0707-4707-8707-070707070707"
         },
         "request":{
            "method":"PUT",
            "url":"Device/07070707-0707-4707-8707-070707070707"
         }
      },
      {
         "resource":{
            "identifier":[
               {
                  "value":"RAL"
               },
               {
                  "value":"4.2-two",
                  "type":{
                     "coding":[
                        {
                           "code":"UUID",
                           "system":"http://terminology.hl7.org/CodeSystem/v2-0301"
                        }
                     ]
                  },
                  "system":"urn:ietf:rfc:3986"
               }
            ],
            "id":"08080808-0808-4808-8808-080808080808",
            "resourceType":"Organization"
         },
         "request":{
            "method":"PUT",
            "url":"Organization/08080808-0808-4808-8808-080808080808"
         }
      },
      {
         "request":{
            "url":"Provenance/09090909-0909-4909-8909-090909090909",
            "method":"PUT"
         },
         "resource":{
            "recorded":"2019-03-09T13:01:56.9339Z",
            "id":"09090909-0909-4909-8909-090909090909",
            "resourceType":"Provenance",
            "agent":[
               {
                  "type":{
                     "coding":[
                        {
                           "system":"http://terminology.hl7.org/CodeSystem/provenance-participant-type",
                           "code":"assembler"
                        }
                     ]
                  },
                  "who":{
                     "reference":"Device/07070707-0707-4707-8707-070707070707"
                  }
               },
               {
                  "type":{
                     "coding":[
                        {
                           "system":"http://terminology.hl7.org/CodeSystem/provenance-participant-type",
                           "code":"author"
                        }
                     ]
                  },
                  "who":{
                     "reference":"Organization/08080808-0808-4808-8808-080808080808"
                  }
               }
            ],
            "target":[
               {
                  "reference":"Organization/01010101-0101-4101-8101-010101010101"
               },
               {
                  "reference":"Organization/02020202-0202-4202-8202-020202020202"
               },
               {
                  "reference":"Organization/03030303-0303-4303-8303-030303030303"
               },
               {
                  "reference":"MessageHeader/04040404-0404-4404-8404-040404040404"
               },
               {
                  "reference":"Device/05050505-0505-4505-8505-050505050505"
               },
               {
                  "reference":"Provenance/06060606-0606-4606-8606-060606060606"
               },
               {
                  "reference":"Device/07070707-0707-4707-8707-070707070707"
               },
               {
                  "reference":"Organization/08080808-0808-4808-8808-080808080808"
               }
            ]
         }
      }
   ]
}
