{
   "timestamp":"2020-05-26T16:59:17.265526Z",
   "identifier":{
      "value":"456"
   },
   "resourceType":"Bundle",
   "type":"transaction",
   "entry":[
      {
         "resource":{
            "identifier":[
               {
                  "value":"SFAC"
               }
            ],
            "id":"01010101-0101-4101-8101-010101010101",
            "resourceType":"Organization",
            "address":[
               {
                  "country":"44"
               }
            ]
         },
         "request":{
            "method":"PUT",
            "url":"Organization/01010101-0101-4101-8101-010101010101"
         }
      },
      {
         "resource":{
            "resourceType":"Organization",
            "identifier":[
               {
                  "value":"RFAC"
               }
            ],
            "id":"02020202-0202-4202-8202-020202020202"
         },
         "request":{
            "method":"PUT",
            "url":"Organization/02020202-0202-4202-8202-020202020202"
         }
      },
      {
         "resource":{
            "source":{
               "endpoint":"unknown",
               "name":"SIMHOSP"
            },
            "sender":{
               "reference":"Organization/01010101-0101-4101-8101-010101010101"
            },
            "destination":[
               {
                  "receiver":{
                     "reference":"Organization/02020202-0202-4202-8202-020202020202"
                  },
                  "name":"RAPP",
                  "endpoint":"unknown"
               }
            ],
            "eventCoding":{
               "system":"http://terminology.hl7.org/CodeSystem/v2-0003",
               "code":"A03",
               "display":"ADT^A03^"
            },
            "meta":{
               "tag":[
                  {
                     "code":"T",
                     "system":"http://terminology.hl7.org/CodeSystem/v2-0103"
                  },
                  {
                     "system":"http://terminology.hl7.org/CodeSystem/v2-0207"
                  }
               ]
            },
            "id":"03030303-0303-4303-8303-030303030303",
            "resourceType":"MessageHeader"
         },
         "request":{
            "method":"PUT",
            "url":"MessageHeader/03030303-0303-4303-8303-030303030303"
         }
      },
      {
         "resource":{
            "id":"04040404-0404-4404-8404-040404040404",
            "resourceType":"Device",
            "identifier":[
               {
                  "value":"SIMHOSP"
               }
            ]
         },
         "request":{
            "url":"Device/04040404-0404-4404-8404-040404040404",
            "method":"PUT"
         }
      },
      {
         "request":{
            "method":"PUT",
            "url":"Provenance/05050505-0505-4505-8505-050505050505"
         },
         "resource":{
            "recorded":"2020-05-26T16:59:17.265526Z",
            "target":[
               {
                  "reference":"MessageHeader/03030303-0303-4303-8303-030303030303"
               }
            ],
            "id":"05050505-0505-4505-8505-050505050505",
            "resourceType":"Provenance",
            "agent":[
               {
                  "who":{
                     "reference":"Device/04040404-0404-4404-8404-040404040404"
                  }
               }
            ]
         }
      },
      {
         "resource":{
            "resourceType":"Device",
            "identifier":[
               {
                  "value":"SIMHOSP"
               }
            ],
            "id":"06060606-0606-4606-8606-060606060606"
         },
         "request":{
            "method":"PUT",
            "url":"Device/06060606-0606-4606-8606-060606060606"
         }
      },
      {
         "resource":{
            "identifier":[
               {
                  "value":"SFAC"
               }
            ],
            "id":"07070707-0707-4707-8707-070707070707",
            "resourceType":"Organization"
         },
         "request":{
            "method":"PUT",
            "url":"Organization/07070707-0707-4707-8707-070707070707"
         }
      },
      {
         "resource":{
            "id":"09090909-0909-4909-8909-090909090909",
            "resourceType":"Organization",
            "name":"FAMILY PRACTICE",
            "identifier":[
               {
                  "value":"12345",
                  "type":{
                     "coding":[
                        {
                           "system":"http://terminology.hl7.org/CodeSystem/v2-0203"
                        }
                     ]
                  }
               }
            ]
         },
         "request":{
            "url":"Organization/09090909-0909-4909-8909-090909090909",
            "method":"PUT"
         }
      },
      {
         "resource":{
            "gender":"male",
            "identifier":[
               {
                  "value":"1162015789",
                  "type":{
                     "coding":[
                        {
                           "code":"MRN"
                        }
                     ]
                  }
               },
               {
                  "value":"1162015789",
                  "type":{
                     "coding":[
                        {
                           "code":"MRN"
                        }
                     ]
                  }
               },
               {
                  "value":"2172427195",
                  "type":{
                     "coding":[
                        {
                           "code":"NHSNMBR"
                        }
                     ]
                  }
               },
               {
                  "system":"http://hl7.org/fhir/sid/us-ssn",
                  "type":{
                     "coding":[
                        {
                           "code":"SB",
                           "system":"http://terminology.hl7.org/CodeSystem/v2-0203"
                        }
                     ]
                  }
               },
               {
                  "type":{
                     "coding":[
                        {
                           "code":"DL",
                           "system":"http://terminology.hl7.org/CodeSystem/v2-0203"
                        }
                     ]
                  }
               }
            ],
            "multipleBirthBoolean":false,
            "telecom":[
               {
                  "value":"074 5609 6867",
                  "system":"phone",
                  "use":"home"
               }
            ],
            "generalPractitioner":[
               {
                  "reference":"Organization/09090909-0909-4909-8909-090909090909"
               }
            ],
            "address":[
               {
                  "postalCode":"NR52 4EF",
                  "country":"GBR",
                  "line":[
                     "79 Zoot-Suit Place"
                  ],
                  "city":"Croydon"
               }
            ],
            "resourceType":"Patient",
            "id":"0a0a0a0a-0a0a-4a0a-8a0a-0a0a0a0a0a0a",
            "active":true,
            "name":[
               {
                  "use":"anonymous",
                  "family":"Parthasarathy",
                  "given":[
                     "AKI Scenario 12"
                  ],
                  "prefix":[
                     "Mr"
                  ]
               }
            ],
            "birthDate":"1950-11-16"
         },
         "request":{
            "method":"PUT",
            "url":"Patient/0a0a0a0a-0a0a-4a0a-8a0a-0a0a0a0a0a0a"
         }
      },
      {
         "resource":{
            "mode":"instance",
            "physicalType":{
               "coding":[
                  {
                     "code":"si",
                     "system":"http://terminology.hl7.org/CodeSystem/location-physical-type"
                  }
               ]
            },
            "id":"0e0e0e0e-0e0e-4e0e-8e0e-0e0e0e0e0e0e",
            "partOf":{
               "reference":"Location/0c0c0c0c-0c0c-4c0c-8c0c-0c0c0c0c0c0c"
            },
            "resourceType":"Location",
            "name":"RenalWard"
         },
         "request":{
            "method":"PUT",
            "url":"Location/0e0e0e0e-0e0e-4e0e-8e0e-0e0e0e0e0e0e"
         }
      },
      {
         "resource":{
            "resourceType":"Location",
            "name":"MainRoom",
            "mode":"instance",
            "physicalType":{
               "coding":[
                  {
                     "code":"ro",
                     "system":"http://terminology.hl7.org/CodeSystem/location-physical-type"
                  }
               ]
            },
            "id":"0f0f0f0f-0f0f-4f0f-8f0f-0f0f0f0f0f0f",
            "partOf":{
               "reference":"Location/0e0e0e0e-0e0e-4e0e-8e0e-0e0e0e0e0e0e"
            }
         },
         "request":{
            "method":"PUT",
            "url":"Location/0f0f0f0f-0f0f-4f0f-8f0f-0f0f0f0f0f0f"
         }
      },
      {
         "resource":{
            "id":"10101010-1010-4010-9010-101010101010",
            "resourceType":"Location",
            "name":"Bed 6",
            "mode":"instance",
            "partOf":{
               "reference":"Location/0f0f0f0f-0f0f-4f0f-8f0f-0f0f0f0f0f0f"
            },
            "physicalType":{
               "coding":[
                  {
                     "code":"bd",
                     "system":"http://terminology.hl7.org/CodeSystem/location-physical-type"
                  }
               ]
            }
         },
         "request":{
            "method":"PUT",
            "url":"Location/10101010-1010-4010-9010-101010101010"
         }
      },
      {
         "resource":{
            "id":"0b0b0b0b-0b0b-4b0b-8b0b-0b0b0b0b0b0b",
            "resourceType":"Location",
            "name":"Simulated Hospital",
            "mode":"instance",
            "physicalType":{
               "coding":[
                  {
                     "system":"http://terminology.hl7.org/CodeSystem/location-physical-type",
                     "code":"si"
                  }
               ]
            }
         },
         "request":{
            "method":"PUT",
            "url":"Location/0b0b0b0b-0b0b-4b0b-8b0b-0b0b0b0b0b0b"
         }
      },
      {
         "request":{
            "method":"PUT",
            "url":"Location/0c0c0c0c-0c0c-4c0c-8c0c-0c0c0c0c0c0c"
         },
         "resource":{
            "partOf":{
               "reference":"Location/0b0b0b0b-0b0b-4b0b-8b0b-0b0b0b0b0b0b"
            },
            "name":"Main Building",
            "mode":"instance",
            "physicalType":{
               "coding":[
                  {
                     "system":"http://terminology.hl7.org/CodeSystem/location-physical-type",
                     "code":"bu"
                  }
               ]
            },
            "id":"0c0c0c0c-0c0c-4c0c-8c0c-0c0c0c0c0c0c",
            "resourceType":"Location"
         }
      },
      {
         "resource":{
            "mode":"instance",
            "physicalType":{
               "coding":[
                  {
                     "system":"http://terminology.hl7.org/CodeSystem/location-physical-type",
                     "code":"lvl"
                  }
               ]
            },
            "id":"0d0d0d0d-0d0d-4d0d-8d0d-0d0d0d0d0d0d",
            "resourceType":"Location",
            "partOf":{
               "reference":"Location/0c0c0c0c-0c0c-4c0c-8c0c-0c0c0c0c0c0c"
            },
            "name":"5"
         },
         "request":{
            "method":"PUT",
            "url":"Location/0d0d0d0d-0d0d-4d0d-8d0d-0d0d0d0d0d0d"
         }
      },
      {
         "resource":{
            "resourceType":"Practitioner",
            "identifier":[
               {
                  "type":{
                     "coding":[
                        {
                           "code":"ORGDR"
                        }
                     ]
                  },
                  "value":"C003"
               }
            ],
            "name":[
               {
                  "family":"Cuddy",
                  "given":[
                     "Kevin"
                  ],
                  "prefix":[
                     "Dr"
                  ],
                  "use":"anonymous"
               }
            ],
            "id":"11111111-1111-4111-9111-111111111111"
         },
         "request":{
            "method":"PUT",
            "url":"Practitioner/11111111-1111-4111-9111-111111111111"
         }
      },
      {
         "resource":{
            "period":{
               "start":"2020-05-26T16:01:03+05:00",
               "end":"2020-05-26T16:59:17+05:00"
            },
            "participant":[
               {
                  "type":[
                     {
                        "coding":[
                           {
                              "system":"http://terminology.hl7.org/CodeSystem/v3-ParticipationType",
                              "display":"attender",
                              "code":"ATND"
                           }
                        ]
                     }
                  ],
                  "individual":{
                     "reference":"Practitioner/11111111-1111-4111-9111-111111111111"
                  }
               }
            ],
            "status":"finished",
            "type":[
               {
                  "coding":[
                     {
                        "code":"28b"
                     }
                  ]
               }
            ],
            "identifier":[
               {
                  "value":"15125621663361907232",
                  "type":{
                     "coding":[
                        {
                           "system":"http://terminology.hl7.org/CodeSystem/v2-0203",
                           "code":"visitid"
                        }
                     ],
                     "text":"visit number"
                  }
               }
            ],
            "class":{
               "version":"v1",
               "display":"inpatient encounter",
               "system":"http://terminology.hl7.org/CodeSystem/v3-ActCode",
               "code":"IMP"
            },
            "location":[
               {
                  "location":{
                     "reference":"Location/0e0e0e0e-0e0e-4e0e-8e0e-0e0e0e0e0e0e"
                  },
                  "status":"active"
               },
               {
                  "status":"active",
                  "location":{
                     "reference":"Location/0f0f0f0f-0f0f-4f0f-8f0f-0f0f0f0f0f0f"
                  }
               },
               {
                  "location":{
                     "reference":"Location/10101010-1010-4010-9010-101010101010"
                  },
                  "status":"active"
               },
               {
                  "location":{
                     "reference":"Location/0b0b0b0b-0b0b-4b0b-8b0b-0b0b0b0b0b0b"
                  },
                  "status":"active"
               },
               {
                  "status":"active",
                  "location":{
                     "reference":"Location/0c0c0c0c-0c0c-4c0c-8c0c-0c0c0c0c0c0c"
                  }
               },
               {
                  "location":{
                     "reference":"Location/0d0d0d0d-0d0d-4d0d-8d0d-0d0d0d0d0d0d"
                  },
                  "status":"active"
               }
            ],
            "resourceType":"Encounter",
            "id":"12121212-1212-4212-9212-121212121212",
            "subject":{
               "reference":"Patient/0a0a0a0a-0a0a-4a0a-8a0a-0a0a0a0a0a0a"
            }
         },
         "request":{
            "method":"PUT",
            "url":"Encounter/12121212-1212-4212-9212-121212121212"
         }
      },
      {
         "resource":{
            "resourceType":"AllergyIntolerance",
            "clinicalStatus":{
               "coding":[
                  {
                     "code":"active",
                     "system":"http://terminology.hl7.org/CodeSystem/allergyintolerance-clinical"
                  }
               ]
            },
            "code":{
               "coding":[
                  {
                     "code":"59037007",
                     "display":"Drug intolerance (disorder)",
                     "system":"SNM3"
                  }
               ]
            },
            "reaction":[
               {
                  "severity":"moderate",
                  "manifestation":[
                     {
                        "text":"Place Holder"
                     }
                  ]
               }
            ],
            "category":[
               "food"
            ],
            "onsetDateTime":"2019-10-20T16:01:03+10:00",
            "id":"13131313-1313-4313-9313-131313131313",
            "patient":{
               "reference":"Patient/0a0a0a0a-0a0a-4a0a-8a0a-0a0a0a0a0a0a"
            },
            "type":"allergy"
         },
         "request":{
            "method":"PUT",
            "url":"AllergyIntolerance/13131313-1313-4313-9313-131313131313"
         }
      },
      {
         "resource":{
            "onsetDateTime":"2019-06-04T16:01:03+06:00",
            "category":[
               "medication"
            ],
            "patient":{
               "reference":"Patient/0a0a0a0a-0a0a-4a0a-8a0a-0a0a0a0a0a0a"
            },
            "clinicalStatus":{
               "coding":[
                  {
                     "code":"active",
                     "system":"http://terminology.hl7.org/CodeSystem/allergyintolerance-clinical"
                  }
               ]
            },
            "id":"14141414-1414-4414-9414-141414141414",
            "resourceType":"AllergyIntolerance",
            "type":"allergy",
            "reaction":[
               {
                  "manifestation":[
                     {
                        "text":"Place Holder"
                     }
                  ],
                  "severity":"severe"
               }
            ],
            "code":{
               "coding":[
                  {
                     "system":"SNM3",
                     "code":"419199007",
                     "display":"Allergy to substance (disorder)"
                  }
               ]
            }
         },
         "request":{
            "method":"PUT",
            "url":"AllergyIntolerance/14141414-1414-4414-9414-141414141414"
         }
      },
      {
         "resource":{
            "patient":{
               "reference":"Patient/0a0a0a0a-0a0a-4a0a-8a0a-0a0a0a0a0a0a"
            },
            "code":{
               "coding":[
                  {
                     "display":"Food intolerance (disorder)",
                     "system":"SNM3",
                     "code":"235719002"
                  }
               ]
            },
            "onsetDateTime":"2020-05-06T16:01:03+05:00",
            "clinicalStatus":{
               "coding":[
                  {
                     "code":"active",
                     "system":"http://terminology.hl7.org/CodeSystem/allergyintolerance-clinical"
                  }
               ]
            },
            "reaction":[
               {
                  "severity":"severe",
                  "manifestation":[
                     {
                        "text":"Place Holder"
                     }
                  ]
               }
            ],
            "id":"15151515-1515-4515-9515-151515151515",
            "category":[
               "medication"
            ],
            "type":"allergy",
            "resourceType":"AllergyIntolerance"
         },
         "request":{
            "method":"PUT",
            "url":"AllergyIntolerance/15151515-1515-4515-9515-151515151515"
         }
      },
      {
         "request":{
            "method":"PUT",
            "url":"Provenance/08080808-0808-4808-8808-080808080808"
         },
         "resource":{
            "id":"08080808-0808-4808-8808-080808080808",
            "target":[
               {
                  "reference":"Organization/01010101-0101-4101-8101-010101010101"
               },
               {
                  "reference":"Organization/02020202-0202-4202-8202-020202020202"
               },
               {
                  "reference":"MessageHeader/03030303-0303-4303-8303-030303030303"
               },
               {
                  "reference":"Device/04040404-0404-4404-8404-040404040404"
               },
               {
                  "reference":"Provenance/05050505-0505-4505-8505-050505050505"
               },
               {
                  "reference":"Device/06060606-0606-4606-8606-060606060606"
               },
               {
                  "reference":"Organization/07070707-0707-4707-8707-070707070707"
               },
               {
                  "reference":"Organization/09090909-0909-4909-8909-090909090909"
               },
               {
                  "reference":"Patient/0a0a0a0a-0a0a-4a0a-8a0a-0a0a0a0a0a0a"
               },
               {
                  "reference":"Location/0e0e0e0e-0e0e-4e0e-8e0e-0e0e0e0e0e0e"
               },
               {
                  "reference":"Location/0f0f0f0f-0f0f-4f0f-8f0f-0f0f0f0f0f0f"
               },
               {
                  "reference":"Location/10101010-1010-4010-9010-101010101010"
               },
               {
                  "reference":"Location/0b0b0b0b-0b0b-4b0b-8b0b-0b0b0b0b0b0b"
               },
               {
                  "reference":"Location/0c0c0c0c-0c0c-4c0c-8c0c-0c0c0c0c0c0c"
               },
               {
                  "reference":"Location/0d0d0d0d-0d0d-4d0d-8d0d-0d0d0d0d0d0d"
               },
               {
                  "reference":"Practitioner/11111111-1111-4111-9111-111111111111"
               },
               {
                  "reference":"Encounter/12121212-1212-4212-9212-121212121212"
               },
               {
                  "reference":"AllergyIntolerance/13131313-1313-4313-9313-131313131313"
               },
               {
                  "reference":"AllergyIntolerance/14141414-1414-4414-9414-141414141414"
               },
               {
                  "reference":"AllergyIntolerance/15151515-1515-4515-9515-151515151515"
               }
            ],
            "resourceType":"Provenance",
            "agent":[
               {
                  "who":{
                     "reference":"Device/06060606-0606-4606-8606-060606060606"
                  },
                  "type":{
                     "coding":[
                        {
                           "system":"http://terminology.hl7.org/CodeSystem/provenance-participant-type",
                           "code":"assembler"
                        }
                     ]
                  }
               },
               {
                  "who":{
                     "reference":"Organization/07070707-0707-4707-8707-070707070707"
                  },
                  "type":{
                     "coding":[
                        {
                           "code":"author",
                           "system":"http://terminology.hl7.org/CodeSystem/provenance-participant-type"
                        }
                     ]
                  }
               }
            ],
            "recorded":"2020-05-26T16:59:17.265526Z"
         }
      }
   ]
}
