{
   "type":"transaction",
   "entry":[
      {
         "resource":{
            "resourceType":"Organization",
            "identifier":[
               {
                  "value":"NIST EHR Facility"
               }
            ],
            "id":"01010101-0101-4101-8101-010101010101"
         },
         "request":{
            "method":"PUT",
            "url":"Organization/01010101-0101-4101-8101-010101010101"
         }
      },
      {
         "resource":{
            "identifier":[
               {
                  "value":"NIST Lab Facility"
               }
            ],
            "id":"02020202-0202-4202-8202-020202020202",
            "resourceType":"Organization"
         },
         "request":{
            "url":"Organization/02020202-0202-4202-8202-020202020202",
            "method":"PUT"
         }
      },
      {
         "resource":{
            "id":"03030303-0303-4303-8303-030303030303",
            "resourceType":"MessageHeader",
            "source":{
               "endpoint":"unknown",
               "name":"NIST EHR"
            },
            "sender":{
               "reference":"Organization/01010101-0101-4101-8101-010101010101"
            },
            "destination":[
               {
                  "endpoint":"unknown",
                  "receiver":{
                     "reference":"Organization/02020202-0202-4202-8202-020202020202"
                  },
                  "name":"NIST Test Lab APP"
               }
            ],
            "eventCoding":{
               "code":"O21",
               "display":"OML^O21^OML_O21",
               "system":"http://terminology.hl7.org/CodeSystem/v2-0003"
            },
            "meta":{
               "tag":[
                  {
                     "code":"T",
                     "system":"http://terminology.hl7.org/CodeSystem/v2-0103"
                  },
                  {
                     "system":"http://terminology.hl7.org/CodeSystem/v2-0207"
                  }
               ]
            }
         },
         "request":{
            "url":"MessageHeader/03030303-0303-4303-8303-030303030303",
            "method":"PUT"
         }
      },
      {
         "resource":{
            "id":"04040404-0404-4404-8404-040404040404",
            "resourceType":"Device",
            "identifier":[
               {
                  "value":"NIST EHR"
               }
            ]
         },
         "request":{
            "method":"PUT",
            "url":"Device/04040404-0404-4404-8404-040404040404"
         }
      },
      {
         "resource":{
            "id":"05050505-0505-4505-8505-050505050505",
            "resourceType":"Provenance",
            "agent":[
               {
                  "who":{
                     "reference":"Device/04040404-0404-4404-8404-040404040404"
                  }
               }
            ],
            "recorded":"2005-02-11T18:41:01.112211Z",
            "target":[
               {
                  "reference":"MessageHeader/03030303-0303-4303-8303-030303030303"
               }
            ]
         },
         "request":{
            "method":"PUT",
            "url":"Provenance/05050505-0505-4505-8505-050505050505"
         }
      },
      {
         "resource":{
            "id":"06060606-0606-4606-8606-060606060606",
            "resourceType":"Device",
            "identifier":[
               {
                  "value":"NIST EHR"
               }
            ]
         },
         "request":{
            "method":"PUT",
            "url":"Device/06060606-0606-4606-8606-060606060606"
         }
      },
      {
         "resource":{
            "id":"07070707-0707-4707-8707-070707070707",
            "resourceType":"Organization",
            "identifier":[
               {
                  "value":"NIST EHR Facility"
               }
            ]
         },
         "request":{
            "url":"Organization/07070707-0707-4707-8707-070707070707",
            "method":"PUT"
         }
      },
      {
         "resource":{
            "identifier":[
               {
                  "type":{
                     "coding":[
                        {
                           "code":"MR"
                        }
                     ]
                  },
                  "value":"PATID5421"
               },
               {
                  "system":"http://hl7.org/fhir/sid/us-ssn",
                  "type":{
                     "coding":[
                        {
                           "code":"SB",
                           "system":"http://terminology.hl7.org/CodeSystem/v2-0203"
                        }
                     ]
                  }
               },
               {
                  "type":{
                     "coding":[
                        {
                           "code":"DL",
                           "system":"http://terminology.hl7.org/CodeSystem/v2-0203"
                        }
                     ]
                  }
               }
            ],
            "id":"09090909-0909-4909-8909-090909090909",
            "active":true,
            "name":[
               {
                  "given":[
                     "Patrice",
                     "Natasha"
                  ],
                  "use":"official",
                  "family":"Wilson"
               }
            ],
            "address":[
               {
                  "postalCode":"90012",
                  "use":"home",
                  "line":[
                     "144 East 12th Street"
                  ],
                  "city":"Los Angeles",
                  "state":"CA"
               }
            ],
            "multipleBirthBoolean":false,
            "gender":"female",
            "resourceType":"Patient",
            "birthDate":"1982-03-04"
         },
         "request":{
            "url":"Patient/09090909-0909-4909-8909-090909090909",
            "method":"PUT"
         }
      },
      {
         "resource":{
            "id":"0a0a0a0a-0a0a-4a0a-8a0a-0a0a0a0a0a0a",
            "resourceType":"Specimen",
            "subject":{
               "reference":"Patient/09090909-0909-4909-8909-090909090909"
            }
         },
         "request":{
            "method":"PUT",
            "url":"Specimen/0a0a0a0a-0a0a-4a0a-8a0a-0a0a0a0a0a0a"
         }
      },
      {
         "resource":{
            "identifier":[
               {
                  "value":"ORD448811",
                  "type":{
                     "coding":[
                        {
                           "system":"http://terminology.hl7.org/CodeSystem/v2-0203",
                           "code":"PLAC"
                        }
                     ]
                  }
               },
               {
                  "value":"ORD448811",
                  "type":{
                     "coding":[
                        {
                           "system":"http://terminology.hl7.org/CodeSystem/v2-0203",
                           "code":"PLAC"
                        }
                     ]
                  }
               }
            ],
            "code":{
               "coding":[
                  {
                     "display":"Hepatitis A  B  C Panel",
                     "system":"99USL",
                     "code":"1000"
                  }
               ]
            },
            "effectiveDateTime":"2012-06-28T07:01:00+06:00",
            "status":"registered",
            "specimen":[
               {
                  "reference":"Specimen/0a0a0a0a-0a0a-4a0a-8a0a-0a0a0a0a0a0a"
               }
            ],
            "subject":{
               "reference":"Patient/09090909-0909-4909-8909-090909090909"
            },
            "id":"0b0b0b0b-0b0b-4b0b-8b0b-0b0b0b0b0b0b",
            "resourceType":"DiagnosticReport"
         },
         "request":{
            "method":"PUT",
            "url":"DiagnosticReport/0b0b0b0b-0b0b-4b0b-8b0b-0b0b0b0b0b0b"
         }
      },
      {
         "request":{
            "method":"PUT",
            "url":"Provenance/08080808-0808-4808-8808-080808080808"
         },
         "resource":{
            "recorded":"2005-02-11T18:41:01.112211Z",
            "id":"08080808-0808-4808-8808-080808080808",
            "resourceType":"Provenance",
            "target":[
               {
                  "reference":"Organization/01010101-0101-4101-8101-010101010101"
               },
               {
                  "reference":"Organization/02020202-0202-4202-8202-020202020202"
               },
               {
                  "reference":"MessageHeader/03030303-0303-4303-8303-030303030303"
               },
               {
                  "reference":"Device/04040404-0404-4404-8404-040404040404"
               },
               {
                  "reference":"Provenance/05050505-0505-4505-8505-050505050505"
               },
               {
                  "reference":"Device/06060606-0606-4606-8606-060606060606"
               },
               {
                  "reference":"Organization/07070707-0707-4707-8707-070707070707"
               },
               {
                  "reference":"Patient/09090909-0909-4909-8909-090909090909"
               },
               {
                  "reference":"Specimen/0a0a0a0a-0a0a-4a0a-8a0a-0a0a0a0a0a0a"
               },
               {
                  "reference":"DiagnosticReport/0b0b0b0b-0b0b-4b0b-8b0b-0b0b0b0b0b0b"
               }
            ],
            "agent":[
               {
                  "type":{
                     "coding":[
                        {
                           "code":"assembler",
                           "system":"http://terminology.hl7.org/CodeSystem/provenance-participant-type"
                        }
                     ]
                  },
                  "who":{
                     "reference":"Device/06060606-0606-4606-8606-060606060606"
                  }
               },
               {
                  "type":{
                     "coding":[
                        {
                           "code":"author",
                           "system":"http://terminology.hl7.org/CodeSystem/provenance-participant-type"
                        }
                     ]
                  },
                  "who":{
                     "reference":"Organization/07070707-0707-4707-8707-070707070707"
                  }
               }
            ]
         }
      }
   ],
   "timestamp":"2005-02-11T18:41:01.112211Z",
   "identifier":{
      "value":"NIST-LOI_5.0_1.1-NG"
   },
   "resourceType":"Bundle"
}
