{
   "timestamp":"2005-02-11T18:41:01.112211Z",
   "identifier":{
      "value":"NIST-LOI_5.0_1.1-GU"
   },
   "resourceType":"Bundle",
   "type":"transaction",
   "entry":[
      {
         "request":{
            "method":"PUT",
            "url":"Organization/01010101-0101-4101-8101-010101010101"
         },
         "resource":{
            "identifier":[
               {
                  "value":"NIST EHR Facility"
               },
               {
                  "type":{
                     "coding":[
                        {
                           "system":"http://terminology.hl7.org/CodeSystem/v2-0301",
                           "code":"ISO"
                        }
                     ]
                  },
                  "system":"urn:ietf:rfc:3986",
                  "value":"2.16.840.1.113883.3.72.5.23"
               }
            ],
            "id":"01010101-0101-4101-8101-010101010101",
            "resourceType":"Organization"
         }
      },
      {
         "resource":{
            "id":"02020202-0202-4202-8202-020202020202",
            "resourceType":"Organization",
            "identifier":[
               {
                  "value":"NIST Lab Facility"
               },
               {
                  "system":"urn:ietf:rfc:3986",
                  "value":"2.16.840.1.113883.3.72.5.21",
                  "type":{
                     "coding":[
                        {
                           "code":"ISO",
                           "system":"http://terminology.hl7.org/CodeSystem/v2-0301"
                        }
                     ]
                  }
               }
            ]
         },
         "request":{
            "method":"PUT",
            "url":"Organization/02020202-0202-4202-8202-020202020202"
         }
      },
      {
         "resource":{
            "meta":{
               "tag":[
                  {
                     "system":"http://terminology.hl7.org/CodeSystem/v2-0103",
                     "code":"T"
                  },
                  {
                     "system":"http://terminology.hl7.org/CodeSystem/v2-0207"
                  }
               ]
            },
            "id":"03030303-0303-4303-8303-030303030303",
            "resourceType":"MessageHeader",
            "source":{
               "endpoint":"urn:oid:2.16.840.1.113883.3.72.5.22",
               "name":"NIST EHR"
            },
            "sender":{
               "reference":"Organization/01010101-0101-4101-8101-010101010101"
            },
            "destination":[
               {
                  "receiver":{
                     "reference":"Organization/02020202-0202-4202-8202-020202020202"
                  },
                  "name":"NIST Test Lab APP",
                  "endpoint":"urn:oid:2.16.840.1.113883.3.72.5.20"
               }
            ],
            "eventCoding":{
               "display":"OML^O21^OML_O21",
               "system":"http://terminology.hl7.org/CodeSystem/v2-0003",
               "code":"O21"
            }
         },
         "request":{
            "method":"PUT",
            "url":"MessageHeader/03030303-0303-4303-8303-030303030303"
         }
      },
      {
         "request":{
            "method":"PUT",
            "url":"Device/04040404-0404-4404-8404-040404040404"
         },
         "resource":{
            "resourceType":"Device",
            "identifier":[
               {
                  "value":"NIST EHR"
               },
               {
                  "system":"urn:ietf:rfc:3986",
                  "value":"2.16.840.1.113883.3.72.5.22",
                  "type":{
                     "coding":[
                        {
                           "system":"http://terminology.hl7.org/CodeSystem/v2-0301",
                           "code":"ISO"
                        }
                     ]
                  }
               }
            ],
            "id":"04040404-0404-4404-8404-040404040404"
         }
      },
      {
         "resource":{
            "target":[
               {
                  "reference":"MessageHeader/03030303-0303-4303-8303-030303030303"
               }
            ],
            "id":"05050505-0505-4505-8505-050505050505",
            "resourceType":"Provenance",
            "agent":[
               {
                  "who":{
                     "reference":"Device/04040404-0404-4404-8404-040404040404"
                  }
               }
            ],
            "recorded":"2005-02-11T18:41:01.112211Z"
         },
         "request":{
            "method":"PUT",
            "url":"Provenance/05050505-0505-4505-8505-050505050505"
         }
      },
      {
         "resource":{
            "id":"06060606-0606-4606-8606-060606060606",
            "resourceType":"Device",
            "identifier":[
               {
                  "value":"NIST EHR"
               },
               {
                  "type":{
                     "coding":[
                        {
                           "system":"http://terminology.hl7.org/CodeSystem/v2-0301",
                           "code":"ISO"
                        }
                     ]
                  },
                  "system":"urn:ietf:rfc:3986",
                  "value":"2.16.840.1.113883.3.72.5.22"
               }
            ]
         },
         "request":{
            "method":"PUT",
            "url":"Device/06060606-0606-4606-8606-060606060606"
         }
      },
      {
         "resource":{
            "identifier":[
               {
                  "value":"NIST EHR Facility"
               },
               {
                  "value":"2.16.840.1.113883.3.72.5.23",
                  "type":{
                     "coding":[
                        {
                           "system":"http://terminology.hl7.org/CodeSystem/v2-0301",
                           "code":"ISO"
                        }
                     ]
                  },
                  "system":"urn:ietf:rfc:3986"
               }
            ],
            "id":"07070707-0707-4707-8707-070707070707",
            "resourceType":"Organization"
         },
         "request":{
            "method":"PUT",
            "url":"Organization/07070707-0707-4707-8707-070707070707"
         }
      },
      {
         "resource":{
            "id":"09090909-0909-4909-8909-090909090909",
            "active":true,
            "resourceType":"Patient",
            "birthDate":"1975-04-01",
            "address":[
               {
                  "use":"home",
                  "line":[
                     "450 Bauchet Street"
                  ],
                  "city":"Los Angeles",
                  "state":"CA",
                  "postalCode":"90012"
               }
            ],
            "name":[
               {
                  "family":"Smirnoff",
                  "given":[
                     "Peggy"
                  ],
                  "use":"maiden"
               }
            ],
            "identifier":[
               {
                  "type":{
                     "coding":[
                        {
                           "code":"MR"
                        }
                     ]
                  },
                  "value":"PATID1239"
               },
               {
                  "type":{
                     "coding":[
                        {
                           "code":"SB",
                           "system":"http://terminology.hl7.org/CodeSystem/v2-0203"
                        }
                     ]
                  },
                  "system":"http://hl7.org/fhir/sid/us-ssn"
               },
               {
                  "type":{
                     "coding":[
                        {
                           "code":"DL",
                           "system":"http://terminology.hl7.org/CodeSystem/v2-0203"
                        }
                     ]
                  }
               }
            ],
            "multipleBirthBoolean":false,
            "gender":"female"
         },
         "request":{
            "method":"PUT",
            "url":"Patient/09090909-0909-4909-8909-090909090909"
         }
      },
      {
         "resource":{
            "id":"0a0a0a0a-0a0a-4a0a-8a0a-0a0a0a0a0a0a",
            "resourceType":"Observation",
            "code":{
               "coding":[
                  {
                     "code":"67471-3",
                     "display":"Pregnancy",
                     "system":"LN"
                  }
               ]
            },
            "valueCodeableConcept":{
               "coding":[
                  {
                     "system":"HL70353",
                     "code":"UNK",
                     "display":"Unknown"
                  },
                  {
                     "system":"99USL",
                     "code":"3118003",
                     "display":"Possible, unconfirmed"
                  }
               ],
               "text":"suspected, but unconfirmed - no test to date"
            },
            "status":"unknown",
            "effectiveDateTime":"2012-06-28T00:00:00+06:00",
            "subject":{
               "reference":"Patient/09090909-0909-4909-8909-090909090909"
            }
         },
         "request":{
            "url":"Observation/0a0a0a0a-0a0a-4a0a-8a0a-0a0a0a0a0a0a",
            "method":"PUT"
         }
      },
      {
         "resource":{
            "id":"0b0b0b0b-0b0b-4b0b-8b0b-0b0b0b0b0b0b",
            "resourceType":"Specimen",
            "subject":{
               "reference":"Patient/09090909-0909-4909-8909-090909090909"
            }
         },
         "request":{
            "method":"PUT",
            "url":"Specimen/0b0b0b0b-0b0b-4b0b-8b0b-0b0b0b0b0b0b"
         }
      },
      {
         "resource":{
            "subject":{
               "reference":"Patient/09090909-0909-4909-8909-090909090909"
            },
            "id":"0c0c0c0c-0c0c-4c0c-8c0c-0c0c0c0c0c0c",
            "resourceType":"DiagnosticReport",
            "identifier":[
               {
                  "type":{
                     "coding":[
                        {
                           "code":"PLAC",
                           "system":"http://terminology.hl7.org/CodeSystem/v2-0203"
                        }
                     ]
                  },
                  "value":"ORD448811"
               },
               {
                  "value":"ORD448811",
                  "type":{
                     "coding":[
                        {
                           "system":"http://terminology.hl7.org/CodeSystem/v2-0203",
                           "code":"PLAC"
                        }
                     ]
                  }
               }
            ],
            "code":{
               "coding":[
                  {
                     "system":"99USL",
                     "code":"1000",
                     "display":"Hepatitis A B  C Panel_WithReflex"
                  }
               ]
            },
            "effectiveDateTime":"2012-06-28T07:01:00+06:00",
            "status":"registered",
            "specimen":[
               {
                  "reference":"Specimen/0b0b0b0b-0b0b-4b0b-8b0b-0b0b0b0b0b0b"
               }
            ]
         },
         "request":{
            "url":"DiagnosticReport/0c0c0c0c-0c0c-4c0c-8c0c-0c0c0c0c0c0c",
            "method":"PUT"
         }
      },
      {
         "request":{
            "url":"Provenance/08080808-0808-4808-8808-080808080808",
            "method":"PUT"
         },
         "resource":{
            "id":"08080808-0808-4808-8808-080808080808",
            "resourceType":"Provenance",
            "agent":[
               {
                  "who":{
                     "reference":"Device/06060606-0606-4606-8606-060606060606"
                  },
                  "type":{
                     "coding":[
                        {
                           "system":"http://terminology.hl7.org/CodeSystem/provenance-participant-type",
                           "code":"assembler"
                        }
                     ]
                  }
               },
               {
                  "type":{
                     "coding":[
                        {
                           "code":"author",
                           "system":"http://terminology.hl7.org/CodeSystem/provenance-participant-type"
                        }
                     ]
                  },
                  "who":{
                     "reference":"Organization/07070707-0707-4707-8707-070707070707"
                  }
               }
            ],
            "recorded":"2005-02-11T18:41:01.112211Z",
            "target":[
               {
                  "reference":"Organization/01010101-0101-4101-8101-010101010101"
               },
               {
                  "reference":"Organization/02020202-0202-4202-8202-020202020202"
               },
               {
                  "reference":"MessageHeader/03030303-0303-4303-8303-030303030303"
               },
               {
                  "reference":"Device/04040404-0404-4404-8404-040404040404"
               },
               {
                  "reference":"Provenance/05050505-0505-4505-8505-050505050505"
               },
               {
                  "reference":"Device/06060606-0606-4606-8606-060606060606"
               },
               {
                  "reference":"Organization/07070707-0707-4707-8707-070707070707"
               },
               {
                  "reference":"Patient/09090909-0909-4909-8909-090909090909"
               },
               {
                  "reference":"Observation/0a0a0a0a-0a0a-4a0a-8a0a-0a0a0a0a0a0a"
               },
               {
                  "reference":"Specimen/0b0b0b0b-0b0b-4b0b-8b0b-0b0b0b0b0b0b"
               },
               {
                  "reference":"DiagnosticReport/0c0c0c0c-0c0c-4c0c-8c0c-0c0c0c0c0c0c"
               }
            ]
         }
      }
   ]
}
