{
   "resourceType":"Bundle",
   "type":"transaction",
   "entry":[
      {
         "resource":{
            "identifier":[
               {
                  "value":"DrSmith"
               }
            ],
            "id":"01010101-0101-4101-8101-010101010101",
            "resourceType":"Organization"
         },
         "request":{
            "url":"Organization/01010101-0101-4101-8101-010101010101",
            "method":"PUT"
         }
      },
      {
         "request":{
            "method":"PUT",
            "url":"Organization/02020202-0202-4202-8202-020202020202"
         },
         "resource":{
            "id":"02020202-0202-4202-8202-020202020202",
            "resourceType":"Organization",
            "identifier":[
               {
                  "value":"PAML"
               }
            ]
         }
      },
      {
         "resource":{
            "id":"03030303-0303-4303-8303-030303030303",
            "resourceType":"MessageHeader",
            "source":{
               "name":"7000",
               "endpoint":"unknown"
            },
            "sender":{
               "reference":"Organization/01010101-0101-4101-8101-010101010101"
            },
            "destination":[
               {
                  "endpoint":"unknown",
                  "receiver":{
                     "reference":"Organization/02020202-0202-4202-8202-020202020202"
                  },
                  "name":"1101"
               }
            ],
            "eventCoding":{
               "display":"ORM^O01^ORM_O01",
               "system":"http://terminology.hl7.org/CodeSystem/v2-0003",
               "code":"O01"
            },
            "meta":{
               "tag":[
                  {
                     "code":"P",
                     "system":"http://terminology.hl7.org/CodeSystem/v2-0103"
                  },
                  {
                     "system":"http://terminology.hl7.org/CodeSystem/v2-0207"
                  }
               ]
            }
         },
         "request":{
            "method":"PUT",
            "url":"MessageHeader/03030303-0303-4303-8303-030303030303"
         }
      },
      {
         "resource":{
            "identifier":[
               {
                  "value":"7000"
               }
            ],
            "id":"04040404-0404-4404-8404-040404040404",
            "resourceType":"Device"
         },
         "request":{
            "method":"PUT",
            "url":"Device/04040404-0404-4404-8404-040404040404"
         }
      },
      {
         "request":{
            "method":"PUT",
            "url":"Provenance/05050505-0505-4505-8505-050505050505"
         },
         "resource":{
            "id":"05050505-0505-4505-8505-050505050505",
            "resourceType":"Provenance",
            "agent":[
               {
                  "who":{
                     "reference":"Device/04040404-0404-4404-8404-040404040404"
                  }
               }
            ],
            "recorded":"2012-12-04T10:57:53.412124Z",
            "target":[
               {
                  "reference":"MessageHeader/03030303-0303-4303-8303-030303030303"
               }
            ]
         }
      },
      {
         "resource":{
            "id":"06060606-0606-4606-8606-060606060606",
            "resourceType":"Device",
            "identifier":[
               {
                  "value":"7000"
               }
            ]
         },
         "request":{
            "method":"PUT",
            "url":"Device/06060606-0606-4606-8606-060606060606"
         }
      },
      {
         "resource":{
            "identifier":[
               {
                  "value":"DrSmith"
               }
            ],
            "id":"07070707-0707-4707-8707-070707070707",
            "resourceType":"Organization"
         },
         "request":{
            "method":"PUT",
            "url":"Organization/07070707-0707-4707-8707-070707070707"
         }
      },
      {
         "resource":{
            "identifier":[
               {
                  "value":"0123456789"
               },
               {
                  "system":"http://hl7.org/fhir/sid/us-ssn",
                  "type":{
                     "coding":[
                        {
                           "system":"http://terminology.hl7.org/CodeSystem/v2-0203",
                           "code":"SB"
                        }
                     ]
                  }
               },
               {
                  "type":{
                     "coding":[
                        {
                           "code":"DL",
                           "system":"http://terminology.hl7.org/CodeSystem/v2-0203"
                        }
                     ]
                  }
               }
            ],
            "birthDate":"1970-01-01",
            "multipleBirthBoolean":false,
            "resourceType":"Patient",
            "gender":"male",
            "name":[
               {
                  "given":[
                     "TEST"
                  ],
                  "family":"PATIENT01"
               }
            ],
            "address":[
               {
                  "city":"Spokane",
                  "state":"WA",
                  "postalCode":"99202",
                  "line":[
                     "1234 Here Street"
                  ]
               }
            ],
            "active":true,
            "telecom":[
               {
                  "value":"(509) 555-1212",
                  "system":"phone",
                  "use":"home"
               }
            ],
            "id":"09090909-0909-4909-8909-090909090909"
         },
         "request":{
            "method":"PUT",
            "url":"Patient/09090909-0909-4909-8909-090909090909"
         }
      },
      {
         "request":{
            "method":"PUT",
            "url":"Condition/0a0a0a0a-0a0a-4a0a-8a0a-0a0a0a0a0a0a"
         },
         "resource":{
            "id":"0a0a0a0a-0a0a-4a0a-8a0a-0a0a0a0a0a0a",
            "resourceType":"Condition",
            "code":{
               "coding":[
                  {
                     "display":"Diagnosis Description",
                     "system":"I9C",
                     "code":"700"
                  }
               ]
            },
            "verificationStatus":{
               "coding":[
                  {
                     "system":"http://terminology.hl7.org/CodeSystem/condition-ver-status",
                     "code":"entered-in-error"
                  }
               ]
            },
            "subject":{
               "reference":"Patient/09090909-0909-4909-8909-090909090909"
            }
         }
      },
      {
         "resource":{
            "physicalType":{
               "coding":[
                  {
                     "code":"si",
                     "system":"http://terminology.hl7.org/CodeSystem/location-physical-type"
                  }
               ]
            },
            "id":"0e0e0e0e-0e0e-4e0e-8e0e-0e0e0e0e0e0e",
            "resourceType":"Location",
            "partOf":{
               "reference":"Location/0c0c0c0c-0c0c-4c0c-8c0c-0c0c0c0c0c0c"
            },
            "mode":"instance"
         },
         "request":{
            "method":"PUT",
            "url":"Location/0e0e0e0e-0e0e-4e0e-8e0e-0e0e0e0e0e0e"
         }
      },
      {
         "resource":{
            "id":"0f0f0f0f-0f0f-4f0f-8f0f-0f0f0f0f0f0f",
            "resourceType":"Location",
            "mode":"instance",
            "partOf":{
               "reference":"Location/0e0e0e0e-0e0e-4e0e-8e0e-0e0e0e0e0e0e"
            },
            "physicalType":{
               "coding":[
                  {
                     "system":"http://terminology.hl7.org/CodeSystem/location-physical-type",
                     "code":"ro"
                  }
               ]
            }
         },
         "request":{
            "url":"Location/0f0f0f0f-0f0f-4f0f-8f0f-0f0f0f0f0f0f",
            "method":"PUT"
         }
      },
      {
         "resource":{
            "physicalType":{
               "coding":[
                  {
                     "code":"bd",
                     "system":"http://terminology.hl7.org/CodeSystem/location-physical-type"
                  }
               ]
            },
            "partOf":{
               "reference":"Location/0f0f0f0f-0f0f-4f0f-8f0f-0f0f0f0f0f0f"
            },
            "id":"10101010-1010-4010-9010-101010101010",
            "resourceType":"Location",
            "mode":"instance"
         },
         "request":{
            "method":"PUT",
            "url":"Location/10101010-1010-4010-9010-101010101010"
         }
      },
      {
         "resource":{
            "name":"DrSmith",
            "mode":"instance",
            "physicalType":{
               "coding":[
                  {
                     "code":"si",
                     "system":"http://terminology.hl7.org/CodeSystem/location-physical-type"
                  }
               ]
            },
            "id":"0b0b0b0b-0b0b-4b0b-8b0b-0b0b0b0b0b0b",
            "resourceType":"Location"
         },
         "request":{
            "method":"PUT",
            "url":"Location/0b0b0b0b-0b0b-4b0b-8b0b-0b0b0b0b0b0b"
         }
      },
      {
         "resource":{
            "mode":"instance",
            "physicalType":{
               "coding":[
                  {
                     "code":"bu",
                     "system":"http://terminology.hl7.org/CodeSystem/location-physical-type"
                  }
               ]
            },
            "id":"0c0c0c0c-0c0c-4c0c-8c0c-0c0c0c0c0c0c",
            "resourceType":"Location",
            "partOf":{
               "reference":"Location/0b0b0b0b-0b0b-4b0b-8b0b-0b0b0b0b0b0b"
            },
            "name":"Building1"
         },
         "request":{
            "url":"Location/0c0c0c0c-0c0c-4c0c-8c0c-0c0c0c0c0c0c",
            "method":"PUT"
         }
      },
      {
         "resource":{
            "partOf":{
               "reference":"Location/0c0c0c0c-0c0c-4c0c-8c0c-0c0c0c0c0c0c"
            },
            "resourceType":"Location",
            "mode":"instance",
            "physicalType":{
               "coding":[
                  {
                     "code":"lvl",
                     "system":"http://terminology.hl7.org/CodeSystem/location-physical-type"
                  }
               ]
            },
            "id":"0d0d0d0d-0d0d-4d0d-8d0d-0d0d0d0d0d0d"
         },
         "request":{
            "method":"PUT",
            "url":"Location/0d0d0d0d-0d0d-4d0d-8d0d-0d0d0d0d0d0d"
         }
      },
      {
         "resource":{
            "diagnosis":[
               {
                  "role":{
                     "coding":[
                        {
                           "code":"F"
                        }
                     ]
                  },
                  "condition":{
                     "reference":"Condition/0a0a0a0a-0a0a-4a0a-8a0a-0a0a0a0a0a0a"
                  }
               }
            ],
            "patient":{
               "reference":"Patient/09090909-0909-4909-8909-090909090909"
            },
            "id":"11111111-1111-4111-9111-111111111111",
            "resourceType":"EpisodeOfCare",
            "status":"finished"
         },
         "request":{
            "method":"PUT",
            "url":"EpisodeOfCare/11111111-1111-4111-9111-111111111111"
         }
      },
      {
         "request":{
            "method":"PUT",
            "url":"Encounter/12121212-1212-4212-9212-121212121212"
         },
         "resource":{
            "status":"finished",
            "resourceType":"Encounter",
            "diagnosis":[
               {
                  "condition":{
                     "reference":"Condition/0a0a0a0a-0a0a-4a0a-8a0a-0a0a0a0a0a0a"
                  }
               }
            ],
            "identifier":[
               {
                  "type":{
                     "coding":[
                        {
                           "code":"VN",
                           "system":"http://terminology.hl7.org/CodeSystem/v2-0203"
                        }
                     ],
                     "text":"visit number"
                  }
               }
            ],
            "episodeOfCare":[
               {
                  "reference":"EpisodeOfCare/11111111-1111-4111-9111-111111111111"
               }
            ],
            "class":{
               "code":"AMB"
            },
            "location":[
               {
                  "status":"active",
                  "location":{
                     "reference":"Location/0e0e0e0e-0e0e-4e0e-8e0e-0e0e0e0e0e0e"
                  }
               },
               {
                  "location":{
                     "reference":"Location/0f0f0f0f-0f0f-4f0f-8f0f-0f0f0f0f0f0f"
                  },
                  "status":"active"
               },
               {
                  "status":"active",
                  "location":{
                     "reference":"Location/10101010-1010-4010-9010-101010101010"
                  }
               },
               {
                  "status":"active",
                  "location":{
                     "reference":"Location/0b0b0b0b-0b0b-4b0b-8b0b-0b0b0b0b0b0b"
                  }
               },
               {
                  "status":"active",
                  "location":{
                     "reference":"Location/0c0c0c0c-0c0c-4c0c-8c0c-0c0c0c0c0c0c"
                  }
               },
               {
                  "location":{
                     "reference":"Location/0d0d0d0d-0d0d-4d0d-8d0d-0d0d0d0d0d0d"
                  },
                  "status":"active"
               }
            ],
            "id":"12121212-1212-4212-9212-121212121212",
            "subject":{
               "reference":"Patient/09090909-0909-4909-8909-090909090909"
            }
         }
      },
      {
         "resource":{
            "valueString":"AOE Value",
            "status":"final",
            "subject":{
               "reference":"Patient/09090909-0909-4909-8909-090909090909"
            },
            "id":"13131313-1313-4313-9313-131313131313",
            "resourceType":"Observation",
            "code":{
               "coding":[
                  {
                     "display":"Specimen Source",
                     "code":"99199.Z56"
                  }
               ]
            }
         },
         "request":{
            "method":"PUT",
            "url":"Observation/13131313-1313-4313-9313-131313131313"
         }
      },
      {
         "resource":{
            "resourceType":"Specimen",
            "subject":{
               "reference":"Patient/09090909-0909-4909-8909-090909090909"
            },
            "id":"14141414-1414-4414-9414-141414141414"
         },
         "request":{
            "url":"Specimen/14141414-1414-4414-9414-141414141414",
            "method":"PUT"
         }
      },
      {
         "request":{
            "method":"PUT",
            "url":"DiagnosticReport/15151515-1515-4515-9515-151515151515"
         },
         "resource":{
            "effectiveDateTime":"2013-07-22T00:09:00+07:00",
            "status":"registered",
            "specimen":[
               {
                  "reference":"Specimen/14141414-1414-4414-9414-141414141414"
               }
            ],
            "subject":{
               "reference":"Patient/09090909-0909-4909-8909-090909090909"
            },
            "id":"15151515-1515-4515-9515-151515151515",
            "resourceType":"DiagnosticReport",
            "identifier":[
               {
                  "value":"123456",
                  "type":{
                     "coding":[
                        {
                           "code":"PLAC",
                           "system":"http://terminology.hl7.org/CodeSystem/v2-0203"
                        }
                     ]
                  }
               },
               {
                  "type":{
                     "coding":[
                        {
                           "system":"http://terminology.hl7.org/CodeSystem/v2-0203",
                           "code":"PLAC"
                        }
                     ]
                  },
                  "value":"123456"
               }
            ],
            "code":{
               "coding":[
                  {
                     "code":"80100.DA33",
                     "display":"DAT Apolipoprotein A"
                  }
               ]
            }
         }
      },
      {
         "resource":{
            "recorded":"2012-12-04T10:57:53.412124Z",
            "id":"08080808-0808-4808-8808-080808080808",
            "resourceType":"Provenance",
            "target":[
               {
                  "reference":"Organization/01010101-0101-4101-8101-010101010101"
               },
               {
                  "reference":"Organization/02020202-0202-4202-8202-020202020202"
               },
               {
                  "reference":"MessageHeader/03030303-0303-4303-8303-030303030303"
               },
               {
                  "reference":"Device/04040404-0404-4404-8404-040404040404"
               },
               {
                  "reference":"Provenance/05050505-0505-4505-8505-050505050505"
               },
               {
                  "reference":"Device/06060606-0606-4606-8606-060606060606"
               },
               {
                  "reference":"Organization/07070707-0707-4707-8707-070707070707"
               },
               {
                  "reference":"Patient/09090909-0909-4909-8909-090909090909"
               },
               {
                  "reference":"Condition/0a0a0a0a-0a0a-4a0a-8a0a-0a0a0a0a0a0a"
               },
               {
                  "reference":"Location/0e0e0e0e-0e0e-4e0e-8e0e-0e0e0e0e0e0e"
               },
               {
                  "reference":"Location/0f0f0f0f-0f0f-4f0f-8f0f-0f0f0f0f0f0f"
               },
               {
                  "reference":"Location/10101010-1010-4010-9010-101010101010"
               },
               {
                  "reference":"Location/0b0b0b0b-0b0b-4b0b-8b0b-0b0b0b0b0b0b"
               },
               {
                  "reference":"Location/0c0c0c0c-0c0c-4c0c-8c0c-0c0c0c0c0c0c"
               },
               {
                  "reference":"Location/0d0d0d0d-0d0d-4d0d-8d0d-0d0d0d0d0d0d"
               },
               {
                  "reference":"EpisodeOfCare/11111111-1111-4111-9111-111111111111"
               },
               {
                  "reference":"Encounter/12121212-1212-4212-9212-121212121212"
               },
               {
                  "reference":"Observation/13131313-1313-4313-9313-131313131313"
               },
               {
                  "reference":"Specimen/14141414-1414-4414-9414-141414141414"
               },
               {
                  "reference":"DiagnosticReport/15151515-1515-4515-9515-151515151515"
               }
            ],
            "agent":[
               {
                  "type":{
                     "coding":[
                        {
                           "system":"http://terminology.hl7.org/CodeSystem/provenance-participant-type",
                           "code":"assembler"
                        }
                     ]
                  },
                  "who":{
                     "reference":"Device/06060606-0606-4606-8606-060606060606"
                  }
               },
               {
                  "who":{
                     "reference":"Organization/07070707-0707-4707-8707-070707070707"
                  },
                  "type":{
                     "coding":[
                        {
                           "code":"author",
                           "system":"http://terminology.hl7.org/CodeSystem/provenance-participant-type"
                        }
                     ]
                  }
               }
            ]
         },
         "request":{
            "url":"Provenance/08080808-0808-4808-8808-080808080808",
            "method":"PUT"
         }
      }
   ],
   "timestamp":"2012-12-04T10:57:53.412124Z",
   "identifier":{
      "value":"42513186:13838e5a5ba:-1be8"
   }
}
