{
   "entry":[
      {
         "request":{
            "method":"PUT",
            "url":"Organization/01010101-0101-4101-8101-010101010101"
         },
         "resource":{
            "resourceType":"Organization",
            "address":[
               {
                  "country":"44"
               }
            ],
            "identifier":[
               {
                  "value":"RAL"
               }
            ],
            "id":"01010101-0101-4101-8101-010101010101"
         }
      },
      {
         "request":{
            "url":"Organization/02020202-0202-4202-8202-020202020202",
            "method":"PUT"
         },
         "resource":{
            "identifier":[
               {
                  "value":"RAL"
               }
            ],
            "id":"02020202-0202-4202-8202-020202020202",
            "resourceType":"Organization"
         }
      },
      {
         "resource":{
            "id":"03030303-0303-4303-8303-030303030303",
            "resourceType":"MessageHeader",
            "source":{
               "endpoint":"unknown",
               "name":"CERNER"
            },
            "sender":{
               "reference":"Organization/01010101-0101-4101-8101-010101010101"
            },
            "destination":[
               {
                  "endpoint":"unknown",
                  "receiver":{
                     "reference":"Organization/02020202-0202-4202-8202-020202020202"
                  },
                  "name":"STREAMS"
               }
            ],
            "eventCoding":{
               "system":"http://terminology.hl7.org/CodeSystem/v2-0003",
               "code":"R01",
               "display":"ORU^R01^"
            },
            "meta":{
               "tag":[
                  {
                     "system":"http://terminology.hl7.org/CodeSystem/v2-0103",
                     "code":"T"
                  },
                  {
                     "system":"http://terminology.hl7.org/CodeSystem/v2-0207"
                  }
               ]
            }
         },
         "request":{
            "method":"PUT",
            "url":"MessageHeader/03030303-0303-4303-8303-030303030303"
         }
      },
      {
         "resource":{
            "resourceType":"Device",
            "identifier":[
               {
                  "value":"CERNER"
               }
            ],
            "id":"04040404-0404-4404-8404-040404040404"
         },
         "request":{
            "method":"PUT",
            "url":"Device/04040404-0404-4404-8404-040404040404"
         }
      },
      {
         "resource":{
            "target":[
               {
                  "reference":"MessageHeader/03030303-0303-4303-8303-030303030303"
               }
            ],
            "id":"05050505-0505-4505-8505-050505050505",
            "resourceType":"Provenance",
            "agent":[
               {
                  "who":{
                     "reference":"Device/04040404-0404-4404-8404-040404040404"
                  }
               }
            ],
            "recorded":"2014-08-11T19:38:05.118811Z"
         },
         "request":{
            "url":"Provenance/05050505-0505-4505-8505-050505050505",
            "method":"PUT"
         }
      },
      {
         "resource":{
            "identifier":[
               {
                  "value":"CERNER"
               }
            ],
            "id":"06060606-0606-4606-8606-060606060606",
            "resourceType":"Device"
         },
         "request":{
            "method":"PUT",
            "url":"Device/06060606-0606-4606-8606-060606060606"
         }
      },
      {
         "request":{
            "method":"PUT",
            "url":"Organization/07070707-0707-4707-8707-070707070707"
         },
         "resource":{
            "resourceType":"Organization",
            "identifier":[
               {
                  "value":"RAL"
               }
            ],
            "id":"07070707-0707-4707-8707-070707070707"
         }
      },
      {
         "resource":{
            "name":[
               {
                  "given":[
                     "Angela",
                     "Bridget"
                  ],
                  "prefix":[
                     "Mrs"
                  ],
                  "use":"official",
                  "family":"Bradley"
               }
            ],
            "resourceType":"Patient",
            "id":"09090909-0909-4909-8909-090909090909",
            "identifier":[
               {
                  "type":{
                     "coding":[
                        {
                           "code":"MRN"
                        }
                     ]
                  },
                  "value":"1325463202"
               },
               {
                  "type":{
                     "coding":[
                        {
                           "code":"MRN"
                        }
                     ]
                  },
                  "value":"1325463202"
               },
               {
                  "type":{
                     "coding":[
                        {
                           "code":"NHSNMBR"
                        }
                     ]
                  },
                  "value":"3789692603"
               },
               {
                  "type":{
                     "coding":[
                        {
                           "code":"SB",
                           "system":"http://terminology.hl7.org/CodeSystem/v2-0203"
                        }
                     ]
                  },
                  "system":"http://hl7.org/fhir/sid/us-ssn"
               },
               {
                  "type":{
                     "coding":[
                        {
                           "system":"http://terminology.hl7.org/CodeSystem/v2-0203",
                           "code":"DL"
                        }
                     ]
                  }
               }
            ],
            "telecom":[
               {
                  "use":"home",
                  "value":"020 2295 8931",
                  "system":"phone"
               }
            ],
            "active":true,
            "gender":"female",
            "address":[
               {
                  "country":"GBR",
                  "line":[
                     "140 Heater Lane"
                  ],
                  "city":"Ilford",
                  "postalCode":"JN83 4OE"
               }
            ],
            "multipleBirthBoolean":false,
            "birthDate":"1977-04-20"
         },
         "request":{
            "method":"PUT",
            "url":"Patient/09090909-0909-4909-8909-090909090909"
         }
      },
      {
         "resource":{
            "subject":{
               "reference":"Patient/09090909-0909-4909-8909-090909090909"
            },
            "id":"0a0a0a0a-0a0a-4a0a-8a0a-0a0a0a0a0a0a",
            "resourceType":"Observation",
            "code":{
               "coding":[
                  {
                     "code":"APELV",
                     "display":"APELV"
                  }
               ]
            },
            "valueString":"No fracture or dislocation is present. The joint spaces are normal.  Soft tissue is normal.",
            "status":"final",
            "effectiveDateTime":"2014-08-11T19:38:05+08:00"
         },
         "request":{
            "method":"PUT",
            "url":"Observation/0a0a0a0a-0a0a-4a0a-8a0a-0a0a0a0a0a0a"
         }
      },
      {
         "resource":{
            "id":"0b0b0b0b-0b0b-4b0b-8b0b-0b0b0b0b0b0b",
            "resourceType":"Specimen",
            "receivedTime":"2014-08-11T19:38:05+08:00",
            "subject":{
               "reference":"Patient/09090909-0909-4909-8909-090909090909"
            }
         },
         "request":{
            "method":"PUT",
            "url":"Specimen/0b0b0b0b-0b0b-4b0b-8b0b-0b0b0b0b0b0b"
         }
      },
      {
         "resource":{
            "issued":"2014-08-11T19:38:05.118811Z",
            "specimen":[
               {
                  "reference":"Specimen/0b0b0b0b-0b0b-4b0b-8b0b-0b0b0b0b0b0b"
               }
            ],
            "id":"0c0c0c0c-0c0c-4c0c-8c0c-0c0c0c0c0c0c",
            "status":"final",
            "effectiveDateTime":"2014-08-11T19:38:05+08:00",
            "identifier":[
               {
                  "type":{
                     "coding":[
                        {
                           "code":"PLAC",
                           "system":"http://terminology.hl7.org/CodeSystem/v2-0203"
                        }
                     ]
                  },
                  "value":"1909829541"
               },
               {
                  "type":{
                     "coding":[
                        {
                           "code":"FILL",
                           "system":"http://terminology.hl7.org/CodeSystem/v2-0203"
                        }
                     ]
                  },
                  "value":"3496264291"
               },
               {
                  "value":"1909829541",
                  "type":{
                     "coding":[
                        {
                           "code":"PLAC",
                           "system":"http://terminology.hl7.org/CodeSystem/v2-0203"
                        }
                     ]
                  }
               },
               {
                  "type":{
                     "coding":[
                        {
                           "code":"FILL",
                           "system":"http://terminology.hl7.org/CodeSystem/v2-0203"
                        }
                     ]
                  },
                  "value":"3496264291"
               }
            ],
            "resourceType":"DiagnosticReport",
            "subject":{
               "reference":"Patient/09090909-0909-4909-8909-090909090909"
            },
            "code":{
               "coding":[
                  {
                     "code":"AP Pelvis",
                     "display":"AP Pelvis"
                  }
               ]
            }
         },
         "request":{
            "method":"PUT",
            "url":"DiagnosticReport/0c0c0c0c-0c0c-4c0c-8c0c-0c0c0c0c0c0c"
         }
      },
      {
         "resource":{
            "agent":[
               {
                  "who":{
                     "reference":"Device/06060606-0606-4606-8606-060606060606"
                  },
                  "type":{
                     "coding":[
                        {
                           "system":"http://terminology.hl7.org/CodeSystem/provenance-participant-type",
                           "code":"assembler"
                        }
                     ]
                  }
               },
               {
                  "type":{
                     "coding":[
                        {
                           "system":"http://terminology.hl7.org/CodeSystem/provenance-participant-type",
                           "code":"author"
                        }
                     ]
                  },
                  "who":{
                     "reference":"Organization/07070707-0707-4707-8707-070707070707"
                  }
               }
            ],
            "recorded":"2014-08-11T19:38:05.118811Z",
            "id":"08080808-0808-4808-8808-080808080808",
            "target":[
               {
                  "reference":"Organization/01010101-0101-4101-8101-010101010101"
               },
               {
                  "reference":"Organization/02020202-0202-4202-8202-020202020202"
               },
               {
                  "reference":"MessageHeader/03030303-0303-4303-8303-030303030303"
               },
               {
                  "reference":"Device/04040404-0404-4404-8404-040404040404"
               },
               {
                  "reference":"Provenance/05050505-0505-4505-8505-050505050505"
               },
               {
                  "reference":"Device/06060606-0606-4606-8606-060606060606"
               },
               {
                  "reference":"Organization/07070707-0707-4707-8707-070707070707"
               },
               {
                  "reference":"Patient/09090909-0909-4909-8909-090909090909"
               },
               {
                  "reference":"Observation/0a0a0a0a-0a0a-4a0a-8a0a-0a0a0a0a0a0a"
               },
               {
                  "reference":"Specimen/0b0b0b0b-0b0b-4b0b-8b0b-0b0b0b0b0b0b"
               },
               {
                  "reference":"DiagnosticReport/0c0c0c0c-0c0c-4c0c-8c0c-0c0c0c0c0c0c"
               }
            ],
            "resourceType":"Provenance"
         },
         "request":{
            "method":"PUT",
            "url":"Provenance/08080808-0808-4808-8808-080808080808"
         }
      }
   ],
   "timestamp":"2014-08-11T19:38:05.118811Z",
   "identifier":{
      "value":"8971"
   },
   "resourceType":"Bundle",
   "type":"transaction"
}
