{
   "identifier":{
      "value":"20251014154101-639"
   },
   "resourceType":"Bundle",
   "type":"transaction",
   "entry":[
      {
         "request":{
            "url":"Organization/01010101-0101-4101-8101-010101010101",
            "method":"PUT"
         },
         "resource":{
            "identifier":[
               {
                  "value":"CG3_SICU"
               }
            ],
            "id":"01010101-0101-4101-8101-010101010101",
            "resourceType":"Organization"
         }
      },
      {
         "resource":{
            "identifier":[
               {
                  "value":"GH_CSF"
               }
            ],
            "id":"02020202-0202-4202-8202-020202020202",
            "resourceType":"Organization"
         },
         "request":{
            "url":"Organization/02020202-0202-4202-8202-020202020202",
            "method":"PUT"
         }
      },
      {
         "resource":{
            "sender":{
               "reference":"Organization/01010101-0101-4101-8101-010101010101"
            },
            "destination":[
               {
                  "name":"CE_CENTRAL",
                  "endpoint":"unknown",
                  "receiver":{
                     "reference":"Organization/02020202-0202-4202-8202-020202020202"
                  }
               }
            ],
            "eventCoding":{
               "system":"http://terminology.hl7.org/CodeSystem/v2-0003",
               "code":"R01",
               "display":"ORU^R01^"
            },
            "meta":{
               "tag":[
                  {
                     "code":"P",
                     "system":"http://terminology.hl7.org/CodeSystem/v2-0103"
                  },
                  {
                     "system":"http://terminology.hl7.org/CodeSystem/v2-0207"
                  }
               ]
            },
            "id":"03030303-0303-4303-8303-030303030303",
            "resourceType":"MessageHeader",
            "source":{
               "endpoint":"unknown",
               "name":"HL7"
            }
         },
         "request":{
            "method":"PUT",
            "url":"MessageHeader/03030303-0303-4303-8303-030303030303"
         }
      },
      {
         "resource":{
            "id":"04040404-0404-4404-8404-040404040404",
            "resourceType":"Device",
            "identifier":[
               {
                  "value":"HL7"
               }
            ]
         },
         "request":{
            "method":"PUT",
            "url":"Device/04040404-0404-4404-8404-040404040404"
         }
      },
      {
         "resource":{
            "agent":[
               {
                  "who":{
                     "reference":"Device/04040404-0404-4404-8404-040404040404"
                  }
               }
            ],
            "recorded":"2025-10-14T15:41:01.14101014Z",
            "target":[
               {
                  "reference":"MessageHeader/03030303-0303-4303-8303-030303030303"
               }
            ],
            "id":"05050505-0505-4505-8505-050505050505",
            "resourceType":"Provenance"
         },
         "request":{
            "url":"Provenance/05050505-0505-4505-8505-050505050505",
            "method":"PUT"
         }
      },
      {
         "request":{
            "url":"Device/06060606-0606-4606-8606-060606060606",
            "method":"PUT"
         },
         "resource":{
            "id":"06060606-0606-4606-8606-060606060606",
            "resourceType":"Device",
            "identifier":[
               {
                  "value":"HL7"
               }
            ]
         }
      },
      {
         "resource":{
            "resourceType":"Organization",
            "identifier":[
               {
                  "value":"CG3_SICU"
               }
            ],
            "id":"07070707-0707-4707-8707-070707070707"
         },
         "request":{
            "url":"Organization/07070707-0707-4707-8707-070707070707",
            "method":"PUT"
         }
      },
      {
         "resource":{
            "resourceType":"Patient",
            "identifier":[
               {
                  "value":"100002",
                  "type":{
                     "coding":[
                        {
                           "code":"MR"
                        }
                     ]
                  }
               },
               {
                  "type":{
                     "coding":[
                        {
                           "code":"SB",
                           "system":"http://terminology.hl7.org/CodeSystem/v2-0203"
                        }
                     ]
                  },
                  "system":"http://hl7.org/fhir/sid/us-ssn"
               },
               {
                  "type":{
                     "coding":[
                        {
                           "system":"http://terminology.hl7.org/CodeSystem/v2-0203",
                           "code":"DL"
                        }
                     ]
                  }
               }
            ],
            "name":[
               {
                  "family":"RAPID"
               }
            ],
            "multipleBirthBoolean":false,
            "active":true,
            "id":"09090909-0909-4909-8909-090909090909"
         },
         "request":{
            "url":"Patient/09090909-0909-4909-8909-090909090909",
            "method":"PUT"
         }
      },
      {
         "request":{
            "url":"Observation/0a0a0a0a-0a0a-4a0a-8a0a-0a0a0a0a0a0a",
            "method":"PUT"
         },
         "resource":{
            "id":"0a0a0a0a-0a0a-4a0a-8a0a-0a0a0a0a0a0a",
            "resourceType":"Observation",
            "code":{
               "coding":[
                  {
                     "code":"HR"
                  }
               ]
            },
            "valueString":"73",
            "status":"unknown",
            "subject":{
               "reference":"Patient/09090909-0909-4909-8909-090909090909"
            }
         }
      },
      {
         "request":{
            "url":"Observation/0b0b0b0b-0b0b-4b0b-8b0b-0b0b0b0b0b0b",
            "method":"PUT"
         },
         "resource":{
            "subject":{
               "reference":"Patient/09090909-0909-4909-8909-090909090909"
            },
            "id":"0b0b0b0b-0b0b-4b0b-8b0b-0b0b0b0b0b0b",
            "resourceType":"Observation",
            "code":{
               "coding":[
                  {
                     "code":"PVC"
                  }
               ]
            },
            "valueString":"15",
            "status":"unknown"
         }
      },
      {
         "resource":{
            "status":"unknown",
            "subject":{
               "reference":"Patient/09090909-0909-4909-8909-090909090909"
            },
            "id":"0c0c0c0c-0c0c-4c0c-8c0c-0c0c0c0c0c0c",
            "resourceType":"Observation",
            "code":{
               "coding":[
                  {
                     "code":"STI"
                  }
               ]
            },
            "valueString":"-0.5"
         },
         "request":{
            "method":"PUT",
            "url":"Observation/0c0c0c0c-0c0c-4c0c-8c0c-0c0c0c0c0c0c"
         }
      },
      {
         "resource":{
            "subject":{
               "reference":"Patient/09090909-0909-4909-8909-090909090909"
            },
            "id":"0d0d0d0d-0d0d-4d0d-8d0d-0d0d0d0d0d0d",
            "resourceType":"Observation",
            "code":{
               "coding":[
                  {
                     "code":"STII"
                  }
               ]
            },
            "valueString":"0.0",
            "status":"unknown"
         },
         "request":{
            "method":"PUT",
            "url":"Observation/0d0d0d0d-0d0d-4d0d-8d0d-0d0d0d0d0d0d"
         }
      },
      {
         "request":{
            "method":"PUT",
            "url":"Observation/0e0e0e0e-0e0e-4e0e-8e0e-0e0e0e0e0e0e"
         },
         "resource":{
            "status":"unknown",
            "subject":{
               "reference":"Patient/09090909-0909-4909-8909-090909090909"
            },
            "id":"0e0e0e0e-0e0e-4e0e-8e0e-0e0e0e0e0e0e",
            "resourceType":"Observation",
            "code":{
               "coding":[
                  {
                     "code":"STIII"
                  }
               ]
            },
            "valueString":"0.5"
         }
      },
      {
         "resource":{
            "subject":{
               "reference":"Patient/09090909-0909-4909-8909-090909090909"
            },
            "id":"0f0f0f0f-0f0f-4f0f-8f0f-0f0f0f0f0f0f",
            "resourceType":"Observation",
            "code":{
               "coding":[
                  {
                     "code":"STV1"
                  }
               ]
            },
            "valueString":"0.0",
            "status":"unknown"
         },
         "request":{
            "url":"Observation/0f0f0f0f-0f0f-4f0f-8f0f-0f0f0f0f0f0f",
            "method":"PUT"
         }
      },
      {
         "resource":{
            "id":"10101010-1010-4010-9010-101010101010",
            "resourceType":"Observation",
            "code":{
               "coding":[
                  {
                     "code":"STAVR"
                  }
               ]
            },
            "valueString":"0.2",
            "status":"unknown",
            "subject":{
               "reference":"Patient/09090909-0909-4909-8909-090909090909"
            }
         },
         "request":{
            "method":"PUT",
            "url":"Observation/10101010-1010-4010-9010-101010101010"
         }
      },
      {
         "resource":{
            "id":"11111111-1111-4111-9111-111111111111",
            "resourceType":"Observation",
            "code":{
               "coding":[
                  {
                     "code":"STAVL"
                  }
               ]
            },
            "valueString":"-0.5",
            "status":"unknown",
            "subject":{
               "reference":"Patient/09090909-0909-4909-8909-090909090909"
            }
         },
         "request":{
            "method":"PUT",
            "url":"Observation/11111111-1111-4111-9111-111111111111"
         }
      },
      {
         "resource":{
            "status":"unknown",
            "subject":{
               "reference":"Patient/09090909-0909-4909-8909-090909090909"
            },
            "id":"12121212-1212-4212-9212-121212121212",
            "resourceType":"Observation",
            "code":{
               "coding":[
                  {
                     "code":"STAVF"
                  }
               ]
            },
            "valueString":"0.2"
         },
         "request":{
            "method":"PUT",
            "url":"Observation/12121212-1212-4212-9212-121212121212"
         }
      },
      {
         "resource":{
            "status":"unknown",
            "subject":{
               "reference":"Patient/09090909-0909-4909-8909-090909090909"
            },
            "id":"13131313-1313-4313-9313-131313131313",
            "resourceType":"Observation",
            "code":{
               "coding":[
                  {
                     "code":"RR"
                  }
               ]
            },
            "valueString":"15"
         },
         "request":{
            "url":"Observation/13131313-1313-4313-9313-131313131313",
            "method":"PUT"
         }
      },
      {
         "resource":{
            "subject":{
               "reference":"Patient/09090909-0909-4909-8909-090909090909"
            },
            "id":"14141414-1414-4414-9414-141414141414",
            "resourceType":"Observation",
            "code":{
               "coding":[
                  {
                     "code":"CO2EX"
                  }
               ]
            },
            "valueString":"32",
            "status":"unknown"
         },
         "request":{
            "method":"PUT",
            "url":"Observation/14141414-1414-4414-9414-141414141414"
         }
      },
      {
         "resource":{
            "valueString":"0",
            "status":"unknown",
            "subject":{
               "reference":"Patient/09090909-0909-4909-8909-090909090909"
            },
            "id":"15151515-1515-4515-9515-151515151515",
            "resourceType":"Observation",
            "code":{
               "coding":[
                  {
                     "code":"CO2IN"
                  }
               ]
            }
         },
         "request":{
            "method":"PUT",
            "url":"Observation/15151515-1515-4515-9515-151515151515"
         }
      },
      {
         "request":{
            "method":"PUT",
            "url":"Observation/16161616-1616-4616-9616-161616161616"
         },
         "resource":{
            "subject":{
               "reference":"Patient/09090909-0909-4909-8909-090909090909"
            },
            "id":"16161616-1616-4616-9616-161616161616",
            "resourceType":"Observation",
            "code":{
               "coding":[
                  {
                     "code":"CO2RR"
                  }
               ]
            },
            "valueString":"14",
            "status":"unknown"
         }
      },
      {
         "request":{
            "method":"PUT",
            "url":"Observation/17171717-1717-4717-9717-171717171717"
         },
         "resource":{
            "resourceType":"Observation",
            "code":{
               "coding":[
                  {
                     "code":"SPO2R"
                  }
               ]
            },
            "valueString":"73",
            "status":"unknown",
            "subject":{
               "reference":"Patient/09090909-0909-4909-8909-090909090909"
            },
            "id":"17171717-1717-4717-9717-171717171717"
         }
      },
      {
         "resource":{
            "resourceType":"Observation",
            "code":{
               "coding":[
                  {
                     "code":"SPO2P"
                  }
               ]
            },
            "valueString":"99",
            "status":"unknown",
            "subject":{
               "reference":"Patient/09090909-0909-4909-8909-090909090909"
            },
            "id":"18181818-1818-4818-9818-181818181818"
         },
         "request":{
            "method":"PUT",
            "url":"Observation/18181818-1818-4818-9818-181818181818"
         }
      },
      {
         "resource":{
            "resourceType":"Specimen",
            "subject":{
               "reference":"Patient/09090909-0909-4909-8909-090909090909"
            },
            "id":"19191919-1919-4919-9919-191919191919"
         },
         "request":{
            "method":"PUT",
            "url":"Specimen/19191919-1919-4919-9919-191919191919"
         }
      },
      {
         "request":{
            "url":"DiagnosticReport/1a1a1a1a-1a1a-4a1a-9a1a-1a1a1a1a1a1a",
            "method":"PUT"
         },
         "resource":{
            "id":"1a1a1a1a-1a1a-4a1a-9a1a-1a1a1a1a1a1a",
            "resourceType":"DiagnosticReport",
            "code":{
               "coding":[
                  {
                     "code":"1003-3"
                  }
               ]
            },
            "effectiveDateTime":"2025-10-14T15:41:01+10:00",
            "status":"registered",
            "specimen":[
               {
                  "reference":"Specimen/19191919-1919-4919-9919-191919191919"
               }
            ],
            "subject":{
               "reference":"Patient/09090909-0909-4909-8909-090909090909"
            }
         }
      },
      {
         "resource":{
            "id":"08080808-0808-4808-8808-080808080808",
            "resourceType":"Provenance",
            "agent":[
               {
                  "type":{
                     "coding":[
                        {
                           "code":"assembler",
                           "system":"http://terminology.hl7.org/CodeSystem/provenance-participant-type"
                        }
                     ]
                  },
                  "who":{
                     "reference":"Device/06060606-0606-4606-8606-060606060606"
                  }
               },
               {
                  "who":{
                     "reference":"Organization/07070707-0707-4707-8707-070707070707"
                  },
                  "type":{
                     "coding":[
                        {
                           "code":"author",
                           "system":"http://terminology.hl7.org/CodeSystem/provenance-participant-type"
                        }
                     ]
                  }
               }
            ],
            "target":[
               {
                  "reference":"Organization/01010101-0101-4101-8101-010101010101"
               },
               {
                  "reference":"Organization/02020202-0202-4202-8202-020202020202"
               },
               {
                  "reference":"MessageHeader/03030303-0303-4303-8303-030303030303"
               },
               {
                  "reference":"Device/04040404-0404-4404-8404-040404040404"
               },
               {
                  "reference":"Provenance/05050505-0505-4505-8505-050505050505"
               },
               {
                  "reference":"Device/06060606-0606-4606-8606-060606060606"
               },
               {
                  "reference":"Organization/07070707-0707-4707-8707-070707070707"
               },
               {
                  "reference":"Patient/09090909-0909-4909-8909-090909090909"
               },
               {
                  "reference":"Observation/0a0a0a0a-0a0a-4a0a-8a0a-0a0a0a0a0a0a"
               },
               {
                  "reference":"Observation/0b0b0b0b-0b0b-4b0b-8b0b-0b0b0b0b0b0b"
               },
               {
                  "reference":"Observation/0c0c0c0c-0c0c-4c0c-8c0c-0c0c0c0c0c0c"
               },
               {
                  "reference":"Observation/0d0d0d0d-0d0d-4d0d-8d0d-0d0d0d0d0d0d"
               },
               {
                  "reference":"Observation/0e0e0e0e-0e0e-4e0e-8e0e-0e0e0e0e0e0e"
               },
               {
                  "reference":"Observation/0f0f0f0f-0f0f-4f0f-8f0f-0f0f0f0f0f0f"
               },
               {
                  "reference":"Observation/10101010-1010-4010-9010-101010101010"
               },
               {
                  "reference":"Observation/11111111-1111-4111-9111-111111111111"
               },
               {
                  "reference":"Observation/12121212-1212-4212-9212-121212121212"
               },
               {
                  "reference":"Observation/13131313-1313-4313-9313-131313131313"
               },
               {
                  "reference":"Observation/14141414-1414-4414-9414-141414141414"
               },
               {
                  "reference":"Observation/15151515-1515-4515-9515-151515151515"
               },
               {
                  "reference":"Observation/16161616-1616-4616-9616-161616161616"
               },
               {
                  "reference":"Observation/17171717-1717-4717-9717-171717171717"
               },
               {
                  "reference":"Observation/18181818-1818-4818-9818-181818181818"
               },
               {
                  "reference":"Specimen/19191919-1919-4919-9919-191919191919"
               },
               {
                  "reference":"DiagnosticReport/1a1a1a1a-1a1a-4a1a-9a1a-1a1a1a1a1a1a"
               }
            ],
            "recorded":"2025-10-14T15:41:01.14101014Z"
         },
         "request":{
            "url":"Provenance/08080808-0808-4808-8808-080808080808",
            "method":"PUT"
         }
      }
   ],
   "timestamp":"2025-10-14T15:41:01.14101014Z"
}
